Folder: HASEL_strain_force

File: Fm40_ns_21nc_4_r3.txt
Stroke (mm),Force (N)
13.2339,0.0124837
4.11663,1.9902
2.48717,3.99641
1.80676,5.99836
1.36631,8.00501
1.05978,10.006
0.884774,12.0122
0.757131,14.0139
0.644085,16.0193
0.561105,18.0232
0.489946,20.0273
0.434573,22.0307
0.373489,24.0348
0.293047,26.0361
0.2418,28.0423
0.199754,30.0474
0.12328,32.0504
0.105034,34.0546
0.0893263,36.0547
0.0547381,38.0598
0.0401413,40.0598

File: SF_T_string_05Hz_6kV_Rampedsquare_25kVs_2022_10_25_1312.txt
Stroke (mm),Force (N)
8.5265,-0.0110418
2.57351,1.9898
1.65541,3.99472
1.25233,5.99532
0.988632,8.00045
0.80847,10.0001
0.716921,12.0051
0.633861,14.0057
0.568333,16.0094
0.499473,18.0118
0.443148,20.0146
0.399198,22.0165
0.357866,24.0193
0.319787,26.0198
0.257353,28.0247
0.220384,30.0288
0.166994,32.0306
0.125503,34.0335
0.110747,36.0324
0.098451,38.0363
0.0874239,40.0356